File: 学术相关/122004-pre.txt
Dec. 20, 2017   15:27:29
Multi-Potential Steps
File: 122004-pre
Data Source:  Experiment
Instrument Model:  CHI760E
Ref. Electrode:
Header:
Note:

E1 (V) = -0.5
T1 (s) = 300
Cycle = 1
Sample Interval (s) = 0.008
Quiet Time (sec) = 2
Sensitivity (A/V) = 0.001

Time/sec, Current/A

8.000e-3, -2.229e-3
2.080e-1, -4.194e-4
4.080e-1, -2.781e-4
6.080e-1, -2.205e-4
8.080e-1, -1.875e-4
1.008e+0, -1.655e-4
1.208e+0, -1.495e-4
1.408e+0, -1.373e-4
1.608e+0, -1.277e-4
1.808e+0, -1.198e-4
2.008e+0, -1.132e-4
2.208e+0, -1.075e-4
2.408e+0, -1.026e-4
2.608e+0, -9.834e-5
2.808e+0, -9.447e-5
3.008e+0, -9.109e-5
3.208e+0, -8.795e-5
3.408e+0, -8.518e-5
3.608e+0, -8.201e-5
3.808e+0, -8.014e-5
4.008e+0, -7.784e-5
4.208e+0, -7.582e-5
4.408e+0, -7.378e-5
4.608e+0, -7.211e-5
4.808e+0, -7.035e-5
5.008e+0, -6.893e-5
5.208e+0, -6.739e-5
5.408e+0, -6.592e-5
5.608e+0, -6.466e-5
5.808e+0, -6.344e-5
6.008e+0, -6.231e-5
6.208e+0, -6.109e-5
6.408e+0, -6.008e-5
6.608e+0, -5.913e-5
6.808e+0, -5.804e-5
7.008e+0, -5.715e-5
7.208e+0, -5.625e-5
7.408e+0, -5.538e-5
7.608e+0, -5.462e-5
7.808e+0, -5.376e-5
8.008e+0, -5.299e-5
8.208e+0, -5.235e-5
8.408e+0, -5.168e-5
8.608e+0, -5.093e-5
8.808e+0, -5.020e-5
9.008e+0, -4.961e-5
9.208e+0, -4.909e-5
9.408e+0, -4.839e-5
9.608e+0, -4.786e-5
9.808e+0, -4.723e-5
1.001e+1, -4.672e-5
1.021e+1, -4.625e-5
1.041e+1, -4.577e-5
1.061e+1, -4.529e-5
1.081e+1, -4.478e-5
1.101e+1, -4.428e-5
1.121e+1, -4.392e-5
1.141e+1, -4.350e-5
1.161e+1, -4.311e-5
1.181e+1, -4.266e-5
1.201e+1, -4.226e-5
1.221e+1, -4.187e-5
1.241e+1, -4.151e-5
1.261e+1, -4.118e-5
1.281e+1, -4.074e-5
1.301e+1, -4.049e-5
1.321e+1, -4.010e-5
1.341e+1, -3.973e-5
1.361e+1, -3.952e-5
1.381e+1, -3.912e-5
1.401e+1, -3.883e-5
1.421e+1, -3.852e-5
1.441e+1, -3.833e-5
1.461e+1, -3.795e-5
1.481e+1, -3.772e-5
1.501e+1, -3.738e-5
1.521e+1, -3.717e-5
1.541e+1, -3.681e-5
1.561e+1, -3.663e-5
1.581e+1, -3.643e-5
1.601e+1, -3.616e-5
1.621e+1, -3.585e-5
1.641e+1, -3.559e-5
1.661e+1, -3.552e-5
1.681e+1, -3.493e-5
1.701e+1, -3.494e-5
1.721e+1, -3.464e-5
1.741e+1, -3.455e-5
1.761e+1, -3.418e-5
1.781e+1, -3.424e-5
1.801e+1, -3.405e-5
1.821e+1, -3.386e-5
1.841e+1, -3.352e-5
1.861e+1, -3.341e-5
1.881e+1, -3.308e-5
1.901e+1, -3.295e-5
1.921e+1, -3.256e-5
1.941e+1, -3.261e-5
1.961e+1, -3.243e-5
1.981e+1, -3.223e-5
2.001e+1, -3.149e-5
2.021e+1, -3.192e-5
2.041e+1, -3.186e-5
2.061e+1, -3.163e-5
2.081e+1, -3.137e-5
2.101e+1, -3.140e-5
2.121e+1, -3.126e-5
2.141e+1, -3.106e-5
2.161e+1, -3.090e-5
2.181e+1, -3.073e-5
2.201e+1, -3.063e-5
2.221e+1, -3.053e-5
2.241e+1, -3.038e-5
2.261e+1, -3.023e-5
2.281e+1, -3.009e-5
2.301e+1, -3.004e-5
2.321e+1, -2.978e-5
2.341e+1, -2.951e-5
2.361e+1, -2.967e-5
2.381e+1, -2.941e-5
2.401e+1, -2.956e-5
2.421e+1, -2.926e-5
2.441e+1, -2.927e-5
2.461e+1, -2.898e-5
2.481e+1, -2.892e-5
2.501e+1, -2.877e-5
2.521e+1, -2.886e-5
2.541e+1, -2.864e-5
2.561e+1, -2.853e-5
2.581e+1, -2.844e-5
2.601e+1, -2.845e-5
2.621e+1, -2.825e-5
2.641e+1, -2.811e-5
2.661e+1, -2.806e-5
2.681e+1, -2.806e-5
2.701e+1, -2.795e-5
2.721e+1, -2.782e-5
2.741e+1, -2.769e-5
2.761e+1, -2.770e-5
2.781e+1, -2.763e-5
2.801e+1, -2.742e-5
2.821e+1, -2.745e-5
2.841e+1, -2.731e-5
2.861e+1, -2.726e-5
2.881e+1, -2.727e-5
2.901e+1, -2.710e-5
2.921e+1, -2.703e-5
2.941e+1, -2.643e-5
2.961e+1, -2.678e-5
2.981e+1, -2.691e-5
3.001e+1, -2.673e-5
3.021e+1, -2.648e-5
3.041e+1, -2.662e-5
3.061e+1, -2.614e-5
3.081e+1, -2.644e-5
3.101e+1, -2.635e-5
3.121e+1, -2.629e-5
3.141e+1, -2.629e-5
3.161e+1, -2.610e-5
3.181e+1, -2.611e-5
3.201e+1, -2.600e-5
3.221e+1, -2.610e-5
3.241e+1, -2.602e-5
3.261e+1, -2.594e-5
3.281e+1, -2.583e-5
3.301e+1, -2.589e-5
3.321e+1, -2.582e-5
3.341e+1, -2.574e-5
3.361e+1, -2.572e-5
3.381e+1, -2.565e-5
3.401e+1, -2.562e-5
3.421e+1, -2.556e-5
3.441e+1, -2.547e-5
3.461e+1, -2.536e-5
3.481e+1, -2.519e-5
3.501e+1, -2.525e-5
3.521e+1, -2.536e-5
3.541e+1, -2.541e-5
3.561e+1, -2.526e-5
3.581e+1, -2.514e-5
3.601e+1, -2.515e-5
3.621e+1, -2.498e-5
3.641e+1, -2.501e-5
3.661e+1, -2.490e-5
3.681e+1, -2.486e-5
3.701e+1, -2.472e-5
3.721e+1, -2.476e-5
3.741e+1, -2.466e-5
3.761e+1, -2.464e-5
3.781e+1, -2.459e-5
3.801e+1, -2.441e-5
3.821e+1, -2.451e-5
3.841e+1, -2.448e-5
3.861e+1, -2.437e-5
3.881e+1, -2.435e-5
3.901e+1, -2.426e-5
3.921e+1, -2.429e-5
3.941e+1, -2.424e-5
3.961e+1, -2.423e-5
3.981e+1, -2.404e-5
4.001e+1, -2.412e-5
4.021e+1, -2.397e-5
4.041e+1, -2.393e-5
4.061e+1, -2.391e-5
4.081e+1, -2.377e-5
4.101e+1, -2.390e-5
4.121e+1, -2.366e-5
4.141e+1, -2.370e-5
4.161e+1, -2.355e-5
4.181e+1, -2.377e-5
4.201e+1, -2.359e-5
4.221e+1, -2.354e-5
4.241e+1, -2.365e-5
4.261e+1, -2.345e-5
4.281e+1, -2.343e-5
4.301e+1, -2.337e-5
4.321e+1, -2.339e-5
4.341e+1, -2.321e-5
4.361e+1, -2.333e-5
4.381e+1, -2.329e-5
4.401e+1, -2.307e-5
4.421e+1, -2.314e-5
4.441e+1, -2.310e-5
4.461e+1, -2.309e-5
4.481e+1, -2.304e-5
4.501e+1, -2.295e-5
4.521e+1, -2.290e-5
4.541e+1, -2.284e-5
4.561e+1, -2.286e-5
4.581e+1, -2.283e-5
4.601e+1, -2.283e-5
4.621e+1, -2.273e-5
4.641e+1, -2.277e-5
4.661e+1, -2.262e-5
4.681e+1, -2.268e-5
4.701e+1, -2.251e-5
4.721e+1, -2.251e-5
4.741e+1, -2.249e-5
4.761e+1, -2.244e-5
4.781e+1, -2.233e-5
4.801e+1, -2.247e-5
4.821e+1, -2.243e-5
4.841e+1, -2.230e-5
4.861e+1, -2.220e-5
4.881e+1, -2.216e-5
4.901e+1, -2.210e-5
4.921e+1, -2.213e-5
4.941e+1, -2.209e-5
4.961e+1, -2.194e-5
4.981e+1, -2.195e-5
5.001e+1, -2.199e-5
5.021e+1, -2.192e-5
5.041e+1, -2.194e-5
5.061e+1, -2.186e-5
5.081e+1, -2.177e-5
5.101e+1, -2.178e-5
5.121e+1, -2.204e-5
5.141e+1, -2.184e-5
5.161e+1, -2.168e-5
5.181e+1, -2.170e-5
5.201e+1, -2.165e-5
5.221e+1, -2.163e-5
5.241e+1, -2.164e-5
5.261e+1, -2.151e-5
5.281e+1, -2.162e-5
5.301e+1, -2.152e-5
5.321e+1, -2.151e-5
5.341e+1, -2.144e-5
5.361e+1, -2.148e-5
5.381e+1, -2.132e-5
5.401e+1, -2.142e-5
5.421e+1, -2.145e-5
5.441e+1, -2.140e-5
5.461e+1, -2.107e-5
5.481e+1, -2.160e-5
5.501e+1, -2.114e-5
5.521e+1, -2.152e-5
5.541e+1, -2.129e-5
5.561e+1, -2.132e-5
5.581e+1, -2.135e-5
5.601e+1, -2.123e-5
5.621e+1, -2.136e-5
5.641e+1, -2.129e-5
5.661e+1, -2.121e-5
5.681e+1, -2.126e-5
5.701e+1, -2.120e-5
5.721e+1, -2.189e-5
5.741e+1, -2.174e-5
5.761e+1, -2.096e-5
5.781e+1, -2.101e-5
5.801e+1, -2.110e-5
5.821e+1, -2.113e-5
5.841e+1, -2.105e-5
5.861e+1, -2.117e-5
5.881e+1, -2.106e-5
5.901e+1, -2.108e-5
5.921e+1, -2.105e-5
5.941e+1, -2.100e-5
5.961e+1, -2.095e-5
5.981e+1, -2.093e-5
6.001e+1, -2.093e-5
6.021e+1, -2.086e-5
6.041e+1, -2.093e-5
6.061e+1, -2.080e-5
6.081e+1, -2.094e-5
6.101e+1, -2.081e-5
6.121e+1, -2.089e-5
6.141e+1, -2.085e-5
6.161e+1, -2.075e-5
6.181e+1, -2.088e-5
6.201e+1, -2.073e-5
6.221e+1, -2.087e-5
6.241e+1, -2.076e-5
6.261e+1, -2.086e-5
6.281e+1, -2.075e-5
6.301e+1, -2.069e-5
6.321e+1, -2.074e-5
6.341e+1, -2.075e-5
6.361e+1, -2.079e-5
6.381e+1, -2.052e-5
6.401e+1, -2.074e-5
6.421e+1, -2.067e-5
6.441e+1, -2.076e-5
6.461e+1, -2.068e-5
6.481e+1, -2.071e-5
6.501e+1, -2.067e-5
6.521e+1, -2.068e-5
6.541e+1, -2.061e-5
6.561e+1, -2.066e-5
6.581e+1, -2.061e-5
6.601e+1, -2.071e-5
6.621e+1, -2.056e-5
6.641e+1, -2.062e-5
6.661e+1, -2.061e-5
6.681e+1, -2.061e-5
6.701e+1, -2.061e-5
6.721e+1, -2.060e-5
6.741e+1, -2.059e-5
6.761e+1, -2.055e-5
6.781e+1, -2.050e-5
6.801e+1, -2.053e-5
6.821e+1, -2.049e-5
6.841e+1, -2.045e-5
6.861e+1, -2.054e-5
6.881e+1, -2.051e-5
6.901e+1, -2.047e-5
6.921e+1, -2.019e-5
6.941e+1, -2.047e-5
6.961e+1, -2.033e-5
6.981e+1, -2.054e-5
7.001e+1, -2.037e-5
7.021e+1, -2.039e-5
7.041e+1, -2.034e-5
7.061e+1, -2.043e-5
7.081e+1, -2.044e-5
7.101e+1, -2.026e-5
7.121e+1, -2.038e-5
7.141e+1, -2.036e-5
7.161e+1, -2.033e-5
7.181e+1, -2.034e-5
7.201e+1, -2.026e-5
7.221e+1, -2.019e-5
7.241e+1, -2.024e-5
7.261e+1, -2.034e-5
7.281e+1, -2.021e-5
7.301e+1, -2.047e-5
7.321e+1, -1.998e-5
7.341e+1, -2.043e-5
7.361e+1, -2.018e-5
7.381e+1, -2.039e-5
7.401e+1, -1.829e-5
7.421e+1, -2.065e-5
7.441e+1, -2.009e-5
7.461e+1, -1.931e-5
7.481e+1, -1.973e-5
7.501e+1, -2.011e-5
7.521e+1, -1.981e-5
7.541e+1, -2.093e-5
7.561e+1, -1.995e-5
7.581e+1, -2.017e-5
7.601e+1, -2.030e-5
7.621e+1, -2.023e-5
7.641e+1, -2.018e-5
7.661e+1, -2.026e-5
7.681e+1, -2.027e-5
7.701e+1, -2.014e-5
7.721e+1, -2.007e-5
7.741e+1, -2.024e-5
7.761e+1, -2.012e-5
7.781e+1, -2.011e-5
7.801e+1, -2.008e-5
7.821e+1, -2.006e-5
7.841e+1, -2.004e-5
7.861e+1, -2.003e-5
7.881e+1, -2.004e-5
7.901e+1, -2.009e-5
7.921e+1, -1.996e-5
7.941e+1, -1.993e-5
7.961e+1, -1.998e-5
7.981e+1, -1.999e-5
8.001e+1, -1.995e-5
8.021e+1, -1.987e-5
8.041e+1, -1.993e-5
8.061e+1, -1.972e-5
8.081e+1, -1.999e-5
8.101e+1, -1.991e-5
8.121e+1, -1.993e-5
8.141e+1, -1.993e-5
8.161e+1, -1.986e-5
8.181e+1, -1.978e-5
8.201e+1, -1.982e-5
8.221e+1, -1.985e-5
8.241e+1, -1.980e-5
8.261e+1, -1.980e-5
8.281e+1, -1.966e-5
8.301e+1, -1.986e-5
8.321e+1, -1.976e-5
8.341e+1, -1.978e-5
8.361e+1, -1.972e-5
8.381e+1, -1.976e-5
8.401e+1, -1.969e-5
8.421e+1, -1.970e-5
8.441e+1, -1.975e-5
8.461e+1, -1.970e-5
8.481e+1, -1.966e-5
8.501e+1, -1.967e-5
8.521e+1, -1.964e-5
8.541e+1, -1.967e-5
8.561e+1, -1.961e-5
8.581e+1, -1.958e-5
8.601e+1, -1.963e-5
8.621e+1, -1.957e-5
8.641e+1, -1.958e-5
8.661e+1, -1.951e-5
8.681e+1, -1.960e-5
8.701e+1, -1.949e-5
8.721e+1, -1.958e-5
8.741e+1, -1.948e-5
8.761e+1, -1.960e-5
8.781e+1, -1.950e-5
8.801e+1, -1.953e-5
8.821e+1, -1.945e-5
8.841e+1, -1.940e-5
8.861e+1, -1.945e-5
8.881e+1, -1.948e-5
8.901e+1, -1.936e-5
8.921e+1, -1.950e-5
8.941e+1, -1.931e-5
8.961e+1, -1.959e-5
8.981e+1, -1.944e-5
9.001e+1, -1.940e-5
9.021e+1, -1.942e-5
9.041e+1, -1.931e-5
9.061e+1, -1.919e-5
9.081e+1, -1.874e-5
9.101e+1, -1.902e-5
9.121e+1, -1.921e-5
9.141e+1, -1.967e-5
9.161e+1, -1.966e-5
9.181e+1, -1.953e-5
9.201e+1, -1.952e-5
9.221e+1, -1.941e-5
9.241e+1, -1.939e-5
9.261e+1, -1.934e-5
9.281e+1, -1.941e-5
9.301e+1, -1.927e-5
9.321e+1, -1.939e-5
9.341e+1, -1.926e-5
9.361e+1, -1.939e-5
9.381e+1, -1.921e-5
9.401e+1, -1.940e-5
9.421e+1, -1.922e-5
9.441e+1, -1.940e-5
9.461e+1, -1.920e-5
9.481e+1, -1.934e-5
9.501e+1, -1.919e-5
9.521e+1, -1.932e-5
9.541e+1, -1.926e-5
9.561e+1, -1.920e-5
9.581e+1, -1.927e-5
9.601e+1, -1.917e-5
9.621e+1, -1.921e-5
9.641e+1, -1.918e-5
9.661e+1, -1.924e-5
9.681e+1, -1.915e-5
9.701e+1, -1.924e-5
9.721e+1, -1.911e-5
9.741e+1, -1.924e-5
9.761e+1, -1.911e-5
9.781e+1, -1.923e-5
9.801e+1, -1.914e-5
9.821e+1, -1.917e-5
9.841e+1, -1.916e-5
9.861e+1, -1.919e-5
9.881e+1, -1.918e-5
9.901e+1, -1.907e-5
9.921e+1, -1.924e-5
9.941e+1, -1.905e-5
9.961e+1, -1.904e-5
9.981e+1, -1.911e-5
1.000e+2, -1.902e-5
1.002e+2, -1.905e-5
1.004e+2, -1.909e-5
1.006e+2, -1.915e-5
1.008e+2, -1.919e-5
1.010e+2, -1.917e-5
1.012e+2, -1.909e-5
1.014e+2, -1.916e-5
1.016e+2, -1.909e-5
1.018e+2, -1.914e-5
1.020e+2, -1.909e-5
1.022e+2, -1.908e-5
1.024e+2, -1.910e-5
1.026e+2, -1.908e-5
1.028e+2, -1.909e-5
1.030e+2, -1.910e-5
1.032e+2, -1.907e-5
1.034e+2, -1.902e-5
1.036e+2, -1.910e-5
1.038e+2, -1.906e-5
1.040e+2, -1.906e-5
1.042e+2, -1.909e-5
1.044e+2, -1.908e-5
1.046e+2, -1.904e-5
1.048e+2, -1.903e-5
1.050e+2, -1.905e-5
1.052e+2, -1.907e-5
1.054e+2, -1.907e-5
1.056e+2, -1.904e-5
1.058e+2, -1.905e-5
1.060e+2, -1.902e-5
1.062e+2, -1.907e-5
1.064e+2, -1.902e-5
1.066e+2, -1.909e-5
1.068e+2, -1.901e-5
1.070e+2, -1.903e-5
1.072e+2, -1.902e-5
1.074e+2, -1.901e-5
1.076e+2, -1.900e-5
1.078e+2, -1.899e-5
1.080e+2, -1.898e-5
1.082e+2, -1.907e-5
1.084e+2, -1.901e-5
1.086e+2, -1.901e-5
1.088e+2, -1.905e-5
1.090e+2, -1.903e-5
1.092e+2, -1.904e-5
1.094e+2, -1.903e-5
1.096e+2, -1.900e-5
1.098e+2, -1.899e-5
1.100e+2, -1.900e-5
1.102e+2, -1.893e-5
1.104e+2, -1.897e-5
1.106e+2, -1.897e-5
1.108e+2, -1.900e-5
1.110e+2, -1.899e-5
1.112e+2, -1.900e-5
1.114e+2, -1.897e-5
1.116e+2, -1.897e-5
1.118e+2, -1.899e-5
1.120e+2, -1.892e-5
1.122e+2, -1.902e-5
1.124e+2, -1.896e-5
1.126e+2, -1.900e-5
1.128e+2, -1.892e-5
1.130e+2, -1.896e-5
1.132e+2, -1.892e-5
1.134e+2, -1.899e-5
1.136e+2, -1.895e-5
1.138e+2, -1.897e-5
1.140e+2, -1.897e-5
1.142e+2, -1.898e-5
1.144e+2, -1.891e-5
1.146e+2, -1.896e-5
1.148e+2, -1.895e-5
1.150e+2, -1.894e-5
1.152e+2, -1.892e-5
1.154e+2, -1.891e-5
1.156e+2, -1.891e-5
1.158e+2, -1.884e-5
1.160e+2, -1.881e-5
1.162e+2, -1.888e-5
1.164e+2, -1.895e-5
1.166e+2, -1.897e-5
1.168e+2, -1.894e-5
1.170e+2, -1.889e-5
1.172e+2, -1.894e-5
1.174e+2, -1.888e-5
1.176e+2, -1.890e-5
1.178e+2, -1.889e-5
1.180e+2, -1.890e-5
1.182e+2, -1.890e-5
1.184e+2, -1.888e-5
1.186e+2, -1.891e-5
1.188e+2, -1.876e-5
1.190e+2, -1.888e-5
1.192e+2, -1.882e-5
1.194e+2, -1.891e-5
1.196e+2, -1.886e-5
1.198e+2, -1.886e-5
1.200e+2, -1.877e-5
1.202e+2, -1.891e-5
1.204e+2, -1.881e-5
1.206e+2, -1.884e-5
1.208e+2, -1.887e-5
1.210e+2, -1.879e-5
1.212e+2, -1.881e-5
1.214e+2, -1.880e-5
1.216e+2, -1.876e-5
1.218e+2, -1.874e-5
1.220e+2, -1.875e-5
1.222e+2, -1.873e-5
1.224e+2, -1.872e-5
1.226e+2, -1.859e-5
1.228e+2, -1.863e-5
1.230e+2, -1.889e-5
1.232e+2, -1.907e-5
1.234e+2, -1.907e-5
1.236e+2, -1.901e-5
1.238e+2, -1.894e-5
1.240e+2, -1.893e-5
1.242e+2, -1.889e-5
1.244e+2, -1.881e-5
1.246e+2, -1.884e-5
1.248e+2, -1.886e-5
1.250e+2, -1.883e-5
1.252e+2, -1.883e-5
1.254e+2, -1.878e-5
1.256e+2, -1.877e-5
1.258e+2, -1.881e-5
1.260e+2, -1.857e-5
1.262e+2, -1.873e-5
1.264e+2, -1.861e-5
1.266e+2, -1.882e-5
1.268e+2, -1.878e-5
1.270e+2, -1.878e-5
1.272e+2, -1.869e-5
1.274e+2, -1.859e-5
1.276e+2, -1.869e-5
1.278e+2, -1.866e-5
1.280e+2, -1.876e-5
1.282e+2, -1.864e-5
1.284e+2, -1.864e-5
1.286e+2, -1.839e-5
1.288e+2, -1.869e-5
1.290e+2, -1.846e-5
1.292e+2, -1.856e-5
1.294e+2, -1.856e-5
1.296e+2, -1.855e-5
1.298e+2, -1.819e-5
1.300e+2, -1.856e-5
1.302e+2, -1.865e-5
1.304e+2, -1.851e-5
1.306e+2, -1.853e-5
1.308e+2, -1.858e-5
1.310e+2, -1.834e-5
1.312e+2, -1.829e-5
1.314e+2, -1.846e-5
1.316e+2, -1.860e-5
1.318e+2, -1.844e-5
1.320e+2, -1.856e-5
1.322e+2, -1.852e-5
1.324e+2, -1.846e-5
1.326e+2, -1.852e-5
1.328e+2, -1.845e-5
1.330e+2, -1.849e-5
1.332e+2, -1.839e-5
1.334e+2, -1.845e-5
1.336e+2, -1.824e-5
1.338e+2, -1.854e-5
1.340e+2, -1.844e-5
1.342e+2, -1.829e-5
1.344e+2, -1.843e-5
1.346e+2, -1.832e-5
1.348e+2, -1.850e-5
1.350e+2, -1.830e-5
1.352e+2, -1.832e-5
1.354e+2, -1.863e-5
1.356e+2, -1.829e-5
1.358e+2, -1.850e-5
1.360e+2, -1.837e-5
1.362e+2, -1.843e-5
1.364e+2, -1.836e-5
1.366e+2, -1.843e-5
1.368e+2, -1.824e-5
1.370e+2, -1.838e-5
1.372e+2, -1.832e-5
1.374e+2, -1.836e-5
1.376e+2, -1.825e-5
1.378e+2, -1.834e-5
1.380e+2, -1.804e-5
1.382e+2, -1.837e-5
1.384e+2, -1.832e-5
1.386e+2, -1.812e-5
1.388e+2, -1.833e-5
1.390e+2, -1.824e-5
1.392e+2, -1.839e-5
1.394e+2, -1.834e-5
1.396e+2, -1.840e-5
1.398e+2, -1.833e-5
1.400e+2, -1.832e-5
1.402e+2, -1.832e-5
1.404e+2, -1.833e-5
1.406e+2, -1.837e-5
1.408e+2, -1.826e-5
1.410e+2, -1.834e-5
1.412e+2, -1.835e-5
1.414e+2, -1.834e-5
1.416e+2, -1.834e-5
1.418e+2, -1.836e-5
1.420e+2, -1.840e-5
1.422e+2, -1.835e-5
1.424e+2, -1.836e-5
1.426e+2, -1.837e-5
1.428e+2, -1.843e-5
1.430e+2, -1.838e-5
1.432e+2, -1.839e-5
1.434e+2, -1.845e-5
1.436e+2, -1.840e-5
1.438e+2, -1.844e-5
1.440e+2, -1.844e-5
1.442e+2, -1.845e-5
1.444e+2, -1.846e-5
1.446e+2, -1.843e-5
1.448e+2, -1.851e-5
1.450e+2, -1.846e-5
1.452e+2, -1.850e-5
1.454e+2, -1.851e-5
1.456e+2, -1.847e-5
1.458e+2, -1.858e-5
1.460e+2, -1.843e-5
1.462e+2, -1.849e-5
1.464e+2, -1.844e-5
1.466e+2, -1.854e-5
1.468e+2, -1.852e-5
1.470e+2, -1.853e-5
1.472e+2, -1.852e-5
1.474e+2, -1.850e-5
1.476e+2, -1.846e-5
1.478e+2, -1.849e-5
1.480e+2, -1.858e-5
1.482e+2, -1.861e-5
1.484e+2, -1.859e-5
1.486e+2, -1.864e-5
1.488e+2, -1.862e-5
1.490e+2, -1.865e-5
1.492e+2, -1.864e-5
1.494e+2, -1.865e-5
1.496e+2, -1.862e-5
1.498e+2, -1.869e-5
1.500e+2, -1.866e-5
1.502e+2, -1.869e-5
1.504e+2, -1.871e-5
1.506e+2, -1.870e-5
1.508e+2, -1.872e-5
1.510e+2, -1.870e-5
1.512e+2, -1.871e-5
1.514e+2, -1.876e-5
1.516e+2, -1.867e-5
1.518e+2, -1.875e-5
1.520e+2, -1.868e-5
1.522e+2, -1.873e-5
1.524e+2, -1.876e-5
1.526e+2, -1.870e-5
1.528e+2, -1.873e-5
1.530e+2, -1.870e-5
1.532e+2, -1.871e-5
1.534e+2, -1.871e-5
1.536e+2, -1.874e-5
1.538e+2, -1.869e-5
1.540e+2, -1.869e-5
1.542e+2, -1.873e-5
1.544e+2, -1.869e-5
1.546e+2, -1.872e-5
1.548e+2, -1.867e-5
1.550e+2, -1.868e-5
1.552e+2, -1.867e-5
1.554e+2, -1.865e-5
1.556e+2, -1.865e-5
1.558e+2, -1.864e-5
1.560e+2, -1.861e-5
1.562e+2, -1.859e-5
1.564e+2, -1.863e-5
1.566e+2, -1.864e-5
1.568e+2, -1.863e-5
1.570e+2, -1.858e-5
1.572e+2, -1.855e-5
1.574e+2, -1.862e-5
1.576e+2, -1.853e-5
1.578e+2, -1.857e-5
1.580e+2, -1.855e-5
1.582e+2, -1.858e-5
1.584e+2, -1.857e-5
1.586e+2, -1.858e-5
1.588e+2, -1.854e-5
1.590e+2, -1.853e-5
1.592e+2, -1.850e-5
1.594e+2, -1.854e-5
1.596e+2, -1.853e-5
1.598e+2, -1.853e-5
1.600e+2, -1.849e-5
1.602e+2, -1.849e-5
1.604e+2, -1.846e-5
1.606e+2, -1.847e-5
1.608e+2, -1.847e-5
1.610e+2, -1.842e-5
1.612e+2, -1.845e-5
1.614e+2, -1.838e-5
1.616e+2, -1.845e-5
1.618e+2, -1.836e-5
1.620e+2, -1.840e-5
1.622e+2, -1.837e-5
1.624e+2, -1.836e-5
1.626e+2, -1.832e-5
1.628e+2, -1.833e-5
1.630e+2, -1.830e-5
1.632e+2, -1.830e-5
1.634e+2, -1.828e-5
1.636e+2, -1.827e-5
1.638e+2, -1.827e-5
1.640e+2, -1.827e-5
1.642e+2, -1.826e-5
1.644e+2, -1.830e-5
1.646e+2, -1.824e-5
1.648e+2, -1.828e-5
1.650e+2, -1.824e-5
1.652e+2, -1.825e-5
1.654e+2, -1.829e-5
1.656e+2, -1.826e-5
1.658e+2, -1.825e-5
1.660e+2, -1.820e-5
1.662e+2, -1.820e-5
1.664e+2, -1.820e-5
1.666e+2, -1.821e-5
1.668e+2, -1.817e-5
1.670e+2, -1.821e-5
1.672e+2, -1.817e-5
1.674e+2, -1.817e-5
1.676e+2, -1.819e-5
1.678e+2, -1.818e-5
1.680e+2, -1.818e-5
1.682e+2, -1.816e-5
1.684e+2, -1.815e-5
1.686e+2, -1.821e-5
1.688e+2, -1.817e-5
1.690e+2, -1.818e-5
1.692e+2, -1.817e-5
1.694e+2, -1.816e-5
1.696e+2, -1.816e-5
1.698e+2, -1.812e-5
1.700e+2, -1.813e-5
1.702e+2, -1.817e-5
1.704e+2, -1.817e-5
1.706e+2, -1.815e-5
1.708e+2, -1.815e-5
1.710e+2, -1.815e-5
1.712e+2, -1.818e-5
1.714e+2, -1.817e-5
1.716e+2, -1.817e-5
1.718e+2, -1.820e-5
1.720e+2, -1.816e-5
1.722e+2, -1.824e-5
1.724e+2, -1.820e-5
1.726e+2, -1.822e-5
1.728e+2, -1.819e-5
1.730e+2, -1.822e-5
1.732e+2, -1.825e-5
1.734e+2, -1.827e-5
1.736e+2, -1.823e-5
1.738e+2, -1.828e-5
1.740e+2, -1.823e-5
1.742e+2, -1.827e-5
1.744e+2, -1.824e-5
1.746e+2, -1.827e-5
1.748e+2, -1.828e-5
1.750e+2, -1.832e-5
1.752e+2, -1.825e-5
1.754e+2, -1.835e-5
1.756e+2, -1.834e-5
1.758e+2, -1.828e-5
1.760e+2, -1.834e-5
1.762e+2, -1.833e-5
1.764e+2, -1.829e-5
1.766e+2, -1.846e-5
1.768e+2, -1.834e-5
1.770e+2, -1.831e-5
1.772e+2, -1.847e-5
1.774e+2, -1.833e-5
1.776e+2, -1.841e-5
1.778e+2, -1.842e-5
1.780e+2, -1.844e-5
1.782e+2, -1.846e-5
1.784e+2, -1.836e-5
1.786e+2, -1.844e-5
1.788e+2, -1.841e-5
1.790e+2, -1.847e-5
1.792e+2, -1.841e-5
1.794e+2, -1.847e-5
1.796e+2, -1.846e-5
1.798e+2, -1.841e-5
1.800e+2, -1.856e-5
1.802e+2, -1.841e-5
1.804e+2, -1.849e-5
1.806e+2, -1.846e-5
1.808e+2, -1.850e-5
1.810e+2, -1.848e-5
1.812e+2, -1.851e-5
1.814e+2, -1.846e-5
1.816e+2, -1.847e-5
1.818e+2, -1.849e-5
1.820e+2, -1.843e-5
1.822e+2, -1.849e-5
1.824e+2, -1.845e-5
1.826e+2, -1.851e-5
1.828e+2, -1.844e-5
1.830e+2, -1.847e-5
1.832e+2, -1.848e-5
1.834e+2, -1.852e-5
1.836e+2, -1.843e-5
1.838e+2, -1.852e-5
1.840e+2, -1.845e-5
1.842e+2, -1.848e-5
1.844e+2, -1.843e-5
1.846e+2, -1.850e-5
1.848e+2, -1.835e-5
1.850e+2, -1.848e-5
1.852e+2, -1.842e-5
1.854e+2, -1.835e-5
1.856e+2, -1.839e-5
1.858e+2, -1.844e-5
1.860e+2, -1.842e-5
1.862e+2, -1.834e-5
1.864e+2, -1.829e-5
1.866e+2, -1.836e-5
1.868e+2, -1.838e-5
1.870e+2, -1.830e-5
1.872e+2, -1.831e-5
1.874e+2, -1.826e-5
1.876e+2, -1.795e-5
1.878e+2, -1.837e-5
1.880e+2, -1.838e-5
1.882e+2, -1.830e-5
1.884e+2, -1.830e-5
1.886e+2, -1.811e-5
1.888e+2, -1.829e-5
1.890e+2, -1.836e-5
1.892e+2, -1.819e-5
1.894e+2, -1.835e-5
1.896e+2, -1.826e-5
1.898e+2, -1.836e-5
1.900e+2, -1.823e-5
1.902e+2, -1.827e-5
1.904e+2, -1.825e-5
1.906e+2, -1.825e-5
1.908e+2, -1.816e-5
1.910e+2, -1.822e-5
1.912e+2, -1.809e-5
1.914e+2, -1.823e-5
1.916e+2, -1.812e-5
1.918e+2, -1.808e-5
1.920e+2, -1.805e-5
1.922e+2, -1.816e-5
1.924e+2, -1.817e-5
1.926e+2, -1.819e-5
1.928e+2, -1.813e-5
1.930e+2, -1.810e-5
1.932e+2, -1.811e-5
1.934e+2, -1.808e-5
1.936e+2, -1.812e-5
1.938e+2, -1.814e-5
1.940e+2, -1.805e-5
1.942e+2, -1.813e-5
1.944e+2, -1.802e-5
1.946e+2, -1.808e-5
1.948e+2, -1.802e-5
1.950e+2, -1.812e-5
1.952e+2, -1.801e-5
1.954e+2, -1.804e-5
1.956e+2, -1.810e-5
1.958e+2, -1.798e-5
1.960e+2, -1.803e-5
1.962e+2, -1.802e-5
1.964e+2, -1.807e-5
1.966e+2, -1.803e-5
1.968e+2, -1.800e-5
1.970e+2, -1.791e-5
1.972e+2, -1.792e-5
1.974e+2, -1.794e-5
1.976e+2, -1.800e-5
1.978e+2, -1.794e-5
1.980e+2, -1.802e-5
1.982e+2, -1.791e-5
1.984e+2, -1.802e-5
1.986e+2, -1.799e-5
1.988e+2, -1.791e-5
1.990e+2, -1.803e-5
1.992e+2, -1.798e-5
1.994e+2, -1.799e-5
1.996e+2, -1.800e-5
1.998e+2, -1.805e-5
2.000e+2, -1.788e-5
2.002e+2, -1.804e-5
2.004e+2, -1.799e-5
2.006e+2, -1.804e-5
2.008e+2, -1.804e-5
2.010e+2, -1.798e-5
2.012e+2, -1.802e-5
2.014e+2, -1.805e-5
2.016e+2, -1.804e-5
2.018e+2, -1.813e-5
2.020e+2, -1.809e-5
2.022e+2, -1.808e-5
2.024e+2, -1.811e-5
2.026e+2, -1.812e-5
2.028e+2, -1.817e-5
2.030e+2, -1.808e-5
2.032e+2, -1.820e-5
2.034e+2, -1.817e-5
2.036e+2, -1.819e-5
2.038e+2, -1.816e-5
2.040e+2, -1.820e-5
2.042e+2, -1.817e-5
2.044e+2, -1.818e-5
2.046e+2, -1.812e-5
2.048e+2, -1.823e-5
2.050e+2, -1.822e-5
2.052e+2, -1.814e-5
2.054e+2, -1.825e-5
2.056e+2, -1.826e-5
2.058e+2, -1.830e-5
2.060e+2, -1.828e-5
2.062e+2, -1.828e-5
2.064e+2, -1.820e-5
2.066e+2, -1.832e-5
2.068e+2, -1.830e-5
2.070e+2, -1.833e-5
2.072e+2, -1.834e-5
2.074e+2, -1.830e-5
2.076e+2, -1.831e-5
2.078e+2, -1.833e-5
2.080e+2, -1.832e-5
2.082e+2, -1.836e-5
2.084e+2, -1.833e-5
2.086e+2, -1.835e-5
2.088e+2, -1.830e-5
2.090e+2, -1.836e-5
2.092e+2, -1.837e-5
2.094e+2, -1.837e-5
2.096e+2, -1.834e-5
2.098e+2, -1.840e-5
2.100e+2, -1.836e-5
2.102e+2, -1.837e-5
2.104e+2, -1.838e-5
2.106e+2, -1.840e-5
2.108e+2, -1.838e-5
2.110e+2, -1.833e-5
2.112e+2, -1.835e-5
2.114e+2, -1.835e-5
2.116e+2, -1.836e-5
2.118e+2, -1.829e-5
2.120e+2, -1.838e-5
2.122e+2, -1.826e-5
2.124e+2, -1.833e-5
2.126e+2, -1.829e-5
2.128e+2, -1.838e-5
2.130e+2, -1.841e-5
2.132e+2, -1.832e-5
2.134e+2, -1.832e-5
2.136e+2, -1.833e-5
2.138e+2, -1.828e-5
2.140e+2, -1.830e-5
2.142e+2, -1.826e-5
2.144e+2, -1.829e-5
2.146e+2, -1.827e-5
2.148e+2, -1.825e-5
2.150e+2, -1.820e-5
2.152e+2, -1.825e-5
2.154e+2, -1.820e-5
2.156e+2, -1.821e-5
2.158e+2, -1.819e-5
2.160e+2, -1.821e-5
2.162e+2, -1.816e-5
2.164e+2, -1.816e-5
2.166e+2, -1.812e-5
2.168e+2, -1.810e-5
2.170e+2, -1.816e-5
2.172e+2, -1.814e-5
2.174e+2, -1.812e-5
2.176e+2, -1.811e-5
2.178e+2, -1.813e-5
2.180e+2, -1.803e-5
2.182e+2, -1.804e-5
2.184e+2, -1.802e-5
2.186e+2, -1.808e-5
2.188e+2, -1.802e-5
2.190e+2, -1.805e-5
2.192e+2, -1.798e-5
2.194e+2, -1.804e-5
2.196e+2, -1.797e-5
2.198e+2, -1.798e-5
2.200e+2, -1.797e-5
2.202e+2, -1.801e-5
2.204e+2, -1.791e-5
2.206e+2, -1.805e-5
2.208e+2, -1.791e-5
2.210e+2, -1.803e-5
2.212e+2, -1.785e-5
2.214e+2, -1.801e-5
2.216e+2, -1.782e-5
2.218e+2, -1.803e-5
2.220e+2, -1.789e-5
2.222e+2, -1.797e-5
2.224e+2, -1.790e-5
2.226e+2, -1.790e-5
2.228e+2, -1.794e-5
2.230e+2, -1.788e-5
2.232e+2, -1.793e-5
2.234e+2, -1.792e-5
2.236e+2, -1.792e-5
2.238e+2, -1.789e-5
2.240e+2, -1.795e-5
2.242e+2, -1.789e-5
2.244e+2, -1.794e-5
2.246e+2, -1.787e-5
2.248e+2, -1.793e-5
2.250e+2, -1.789e-5
2.252e+2, -1.793e-5
2.254e+2, -1.787e-5
2.256e+2, -1.799e-5
2.258e+2, -1.785e-5
2.260e+2, -1.798e-5
2.262e+2, -1.790e-5
2.264e+2, -1.790e-5
2.266e+2, -1.796e-5
2.268e+2, -1.792e-5
2.270e+2, -1.797e-5
2.272e+2, -1.788e-5
2.274e+2, -1.798e-5
2.276e+2, -1.788e-5
2.278e+2, -1.798e-5
2.280e+2, -1.796e-5
2.282e+2, -1.799e-5
2.284e+2, -1.791e-5
2.286e+2, -1.798e-5
2.288e+2, -1.798e-5
2.290e+2, -1.798e-5
2.292e+2, -1.796e-5
2.294e+2, -1.797e-5
2.296e+2, -1.794e-5
2.298e+2, -1.807e-5
2.300e+2, -1.799e-5
2.302e+2, -1.806e-5
2.304e+2, -1.805e-5
2.306e+2, -1.802e-5
2.308e+2, -1.807e-5
2.310e+2, -1.808e-5
2.312e+2, -1.805e-5
2.314e+2, -1.808e-5
2.316e+2, -1.805e-5
2.318e+2, -1.801e-5
2.320e+2, -1.807e-5
2.322e+2, -1.808e-5
2.324e+2, -1.811e-5
2.326e+2, -1.808e-5
2.328e+2, -1.820e-5
2.330e+2, -1.800e-5
2.332e+2, -1.829e-5
2.334e+2, -1.805e-5
2.336e+2, -1.821e-5
2.338e+2, -1.807e-5
2.340e+2, -1.818e-5
2.342e+2, -1.814e-5
2.344e+2, -1.822e-5
2.346e+2, -1.818e-5
2.348e+2, -1.818e-5
2.350e+2, -1.816e-5
2.352e+2, -1.824e-5
2.354e+2, -1.819e-5
2.356e+2, -1.824e-5
2.358e+2, -1.809e-5
2.360e+2, -1.833e-5
2.362e+2, -1.817e-5
2.364e+2, -1.831e-5
2.366e+2, -1.815e-5
2.368e+2, -1.824e-5
2.370e+2, -1.821e-5
2.372e+2, -1.826e-5
2.374e+2, -1.830e-5
2.376e+2, -1.823e-5
2.378e+2, -1.829e-5
2.380e+2, -1.822e-5
2.382e+2, -1.825e-5
2.384e+2, -1.826e-5
2.386e+2, -1.821e-5
2.388e+2, -1.830e-5
2.390e+2, -1.819e-5
2.392e+2, -1.828e-5
2.394e+2, -1.823e-5
2.396e+2, -1.827e-5
2.398e+2, -1.799e-5
2.400e+2, -1.834e-5
2.402e+2, -1.824e-5
2.404e+2, -1.818e-5
2.406e+2, -1.825e-5
2.408e+2, -1.821e-5
2.410e+2, -1.823e-5
2.412e+2, -1.818e-5
2.414e+2, -1.822e-5
2.416e+2, -1.819e-5
2.418e+2, -1.823e-5
2.420e+2, -1.815e-5
2.422e+2, -1.817e-5
2.424e+2, -1.820e-5
2.426e+2, -1.811e-5
2.428e+2, -1.817e-5
2.430e+2, -1.813e-5
2.432e+2, -1.812e-5
2.434e+2, -1.815e-5
2.436e+2, -1.815e-5
2.438e+2, -1.809e-5
2.440e+2, -1.815e-5
2.442e+2, -1.777e-5
2.444e+2, -1.814e-5
2.446e+2, -1.798e-5
2.448e+2, -1.804e-5
2.450e+2, -1.811e-5
2.452e+2, -1.806e-5
2.454e+2, -1.807e-5
2.456e+2, -1.805e-5
2.458e+2, -1.801e-5
2.460e+2, -1.803e-5
2.462e+2, -1.801e-5
2.464e+2, -1.805e-5
2.466e+2, -1.806e-5
2.468e+2, -1.799e-5
2.470e+2, -1.800e-5
2.472e+2, -1.799e-5
2.474e+2, -1.796e-5
2.476e+2, -1.794e-5
2.478e+2, -1.795e-5
2.480e+2, -1.794e-5
2.482e+2, -1.798e-5
2.484e+2, -1.785e-5
2.486e+2, -1.797e-5
2.488e+2, -1.789e-5
2.490e+2, -1.793e-5
2.492e+2, -1.793e-5
2.494e+2, -1.774e-5
2.496e+2, -1.785e-5
2.498e+2, -1.794e-5
2.500e+2, -1.787e-5
2.502e+2, -1.791e-5
2.504e+2, -1.782e-5
2.506e+2, -1.788e-5
2.508e+2, -1.786e-5
2.510e+2, -1.783e-5
2.512e+2, -1.788e-5
2.514e+2, -1.777e-5
2.516e+2, -1.789e-5
2.518e+2, -1.780e-5
2.520e+2, -1.784e-5
2.522e+2, -1.772e-5
2.524e+2, -1.780e-5
2.526e+2, -1.777e-5
2.528e+2, -1.784e-5
2.530e+2, -1.776e-5
2.532e+2, -1.784e-5
2.534e+2, -1.776e-5
2.536e+2, -1.786e-5
2.538e+2, -1.775e-5
2.540e+2, -1.770e-5
2.542e+2, -1.775e-5
2.544e+2, -1.786e-5
2.546e+2, -1.774e-5
2.548e+2, -1.780e-5
2.550e+2, -1.782e-5
2.552e+2, -1.775e-5
2.554e+2, -1.785e-5
2.556e+2, -1.774e-5
2.558e+2, -1.779e-5
2.560e+2, -1.779e-5
2.562e+2, -1.783e-5
2.564e+2, -1.769e-5
2.566e+2, -1.782e-5
2.568e+2, -1.780e-5
2.570e+2, -1.779e-5
2.572e+2, -1.783e-5
2.574e+2, -1.775e-5
2.576e+2, -1.782e-5
2.578e+2, -1.780e-5
2.580e+2, -1.777e-5
2.582e+2, -1.782e-5
2.584e+2, -1.785e-5
2.586e+2, -1.774e-5
2.588e+2, -1.786e-5
2.590e+2, -1.783e-5
2.592e+2, -1.782e-5
2.594e+2, -1.788e-5
2.596e+2, -1.780e-5
2.598e+2, -1.790e-5
2.600e+2, -1.782e-5
2.602e+2, -1.789e-5
2.604e+2, -1.779e-5
2.606e+2, -1.796e-5
2.608e+2, -1.771e-5
2.610e+2, -1.797e-5
2.612e+2, -1.784e-5
2.614e+2, -1.802e-5
2.616e+2, -1.795e-5
2.618e+2, -1.828e-5
2.620e+2, -1.839e-5
2.622e+2, -1.849e-5
2.624e+2, -1.842e-5
2.626e+2, -1.856e-5
2.628e+2, -1.845e-5
2.630e+2, -1.845e-5
2.632e+2, -1.822e-5
2.634e+2, -1.795e-5
2.636e+2, -1.776e-5
2.638e+2, -1.756e-5
2.640e+2, -1.661e-5
2.642e+2, -1.756e-5
2.644e+2, -1.779e-5
2.646e+2, -1.800e-5
2.648e+2, -1.802e-5
2.650e+2, -1.804e-5
2.652e+2, -1.803e-5
2.654e+2, -1.812e-5
2.656e+2, -1.802e-5
2.658e+2, -1.820e-5
2.660e+2, -1.804e-5
2.662e+2, -1.812e-5
2.664e+2, -1.809e-5
2.666e+2, -1.808e-5
2.668e+2, -1.812e-5
2.670e+2, -1.806e-5
2.672e+2, -1.809e-5
2.674e+2, -1.808e-5
2.676e+2, -1.817e-5
2.678e+2, -1.811e-5
2.680e+2, -1.813e-5
2.682e+2, -1.810e-5
2.684e+2, -1.814e-5
2.686e+2, -1.814e-5
2.688e+2, -1.812e-5
2.690e+2, -1.809e-5
2.692e+2, -1.819e-5
2.694e+2, -1.804e-5
2.696e+2, -1.814e-5
2.698e+2, -1.807e-5
2.700e+2, -1.813e-5
2.702e+2, -1.803e-5
2.704e+2, -1.809e-5
2.706e+2, -1.809e-5
2.708e+2, -1.806e-5
2.710e+2, -1.807e-5
2.712e+2, -1.802e-5
2.714e+2, -1.810e-5
2.716e+2, -1.804e-5
2.718e+2, -1.806e-5
2.720e+2, -1.804e-5
2.722e+2, -1.804e-5
2.724e+2, -1.799e-5
2.726e+2, -1.802e-5
2.728e+2, -1.797e-5
2.730e+2, -1.803e-5
2.732e+2, -1.798e-5
2.734e+2, -1.805e-5
2.736e+2, -1.789e-5
2.738e+2, -1.799e-5
2.740e+2, -1.795e-5
2.742e+2, -1.796e-5
2.744e+2, -1.762e-5
2.746e+2, -1.791e-5
2.748e+2, -1.799e-5
2.750e+2, -1.785e-5
2.752e+2, -1.795e-5
2.754e+2, -1.781e-5
2.756e+2, -1.795e-5
2.758e+2, -1.778e-5
2.760e+2, -1.799e-5
2.762e+2, -1.777e-5
2.764e+2, -1.790e-5
2.766e+2, -1.781e-5
2.768e+2, -1.784e-5
2.770e+2, -1.781e-5
2.772e+2, -1.779e-5
2.774e+2, -1.780e-5
2.776e+2, -1.775e-5
2.778e+2, -1.779e-5
2.780e+2, -1.774e-5
2.782e+2, -1.774e-5
2.784e+2, -1.778e-5
2.786e+2, -1.761e-5
2.788e+2, -1.772e-5
2.790e+2, -1.772e-5
2.792e+2, -1.771e-5
2.794e+2, -1.773e-5
2.796e+2, -1.769e-5
2.798e+2, -1.771e-5
2.800e+2, -1.767e-5
2.802e+2, -1.773e-5
2.804e+2, -1.766e-5
2.806e+2, -1.772e-5
2.808e+2, -1.760e-5
2.810e+2, -1.774e-5
2.812e+2, -1.760e-5
2.814e+2, -1.767e-5
2.816e+2, -1.764e-5
2.818e+2, -1.764e-5
2.820e+2, -1.763e-5
2.822e+2, -1.763e-5
2.824e+2, -1.760e-5
2.826e+2, -1.763e-5
2.828e+2, -1.766e-5
2.830e+2, -1.762e-5
2.832e+2, -1.765e-5
2.834e+2, -1.764e-5
2.836e+2, -1.761e-5
2.838e+2, -1.766e-5
2.840e+2, -1.764e-5
2.842e+2, -1.764e-5
2.844e+2, -1.769e-5
2.846e+2, -1.764e-5
2.848e+2, -1.761e-5
2.850e+2, -1.759e-5
2.852e+2, -1.768e-5
2.854e+2, -1.768e-5
2.856e+2, -1.768e-5
2.858e+2, -1.769e-5
2.860e+2, -1.772e-5
2.862e+2, -1.761e-5
2.864e+2, -1.775e-5
2.866e+2, -1.770e-5
2.868e+2, -1.767e-5
2.870e+2, -1.769e-5
2.872e+2, -1.775e-5
2.874e+2, -1.771e-5
2.876e+2, -1.776e-5
2.878e+2, -1.775e-5
2.880e+2, -1.770e-5
2.882e+2, -1.772e-5
2.884e+2, -1.778e-5
2.886e+2, -1.776e-5
2.888e+2, -1.778e-5
2.890e+2, -1.781e-5
2.892e+2, -1.778e-5
2.894e+2, -1.784e-5
2.896e+2, -1.781e-5
2.898e+2, -1.781e-5
2.900e+2, -1.779e-5
2.902e+2, -1.774e-5
2.904e+2, -1.781e-5
2.906e+2, -1.788e-5
2.908e+2, -1.778e-5
2.910e+2, -1.785e-5
2.912e+2, -1.785e-5
2.914e+2, -1.788e-5
2.916e+2, -1.785e-5
2.918e+2, -1.795e-5
2.920e+2, -1.795e-5
2.922e+2, -1.793e-5
2.924e+2, -1.790e-5
2.926e+2, -1.794e-5
2.928e+2, -1.790e-5
2.930e+2, -1.790e-5
2.932e+2, -1.792e-5
2.934e+2, -1.797e-5
2.936e+2, -1.791e-5
2.938e+2, -1.793e-5
2.940e+2, -1.795e-5
2.942e+2, -1.793e-5
2.944e+2, -1.796e-5
2.946e+2, -1.791e-5
2.948e+2, -1.788e-5
2.950e+2, -1.787e-5
2.952e+2, -1.790e-5
2.954e+2, -1.791e-5
2.956e+2, -1.800e-5
2.958e+2, -1.798e-5
2.960e+2, -1.803e-5
2.962e+2, -1.801e-5
2.964e+2, -1.800e-5
2.966e+2, -1.798e-5
2.968e+2, -1.801e-5
2.970e+2, -1.795e-5
2.972e+2, -1.798e-5
2.974e+2, -1.790e-5
2.976e+2, -1.796e-5
2.978e+2, -1.794e-5
2.980e+2, -1.802e-5
2.982e+2, -1.785e-5
2.984e+2, -1.795e-5
2.986e+2, -1.788e-5
2.988e+2, -1.796e-5
2.990e+2, -1.788e-5
2.992e+2, -1.794e-5
2.994e+2, -1.791e-5
2.996e+2, -1.791e-5
2.998e+2, -1.788e-5
3.000e+2, -1.763e-5